thisRow.t,notes,response_time,cue_type,Image_vividness,participant_id,gender,age,session,date,expName,Unnamed: 11
,,0.3571923000272363,no_cue,,1.0,f,23.0,1.0,2023-11-01_10h22.33.209,visual-search,
,,0.6357301999814808,mental_cue,,1.0,f,23.0,1.0,2023-11-01_10h22.33.209,visual-search,
,,1.2437638000119478,mental_cue,,1.0,f,23.0,1.0,2023-11-01_10h22.33.209,visual-search,
,,1.4051532000303268,mental_cue,,1.0,f,23.0,1.0,2023-11-01_10h22.33.209,visual-search,
,,0.3267649000044912,visual_cue,,1.0,f,23.0,1.0,2023-11-01_10h22.33.209,visual-search,
,,0.3408602001145482,no_cue,,1.0,f,23.0,1.0,2023-11-01_10h22.33.209,visual-search,
,,1.1761546998750418,mental_cue,,1.0,f,23.0,1.0,2023-11-01_10h22.33.209,visual-search,
,,0.9447117999661714,mental_cue,,1.0,f,23.0,1.0,2023-11-01_10h22.33.209,visual-search,
,,0.499460999853909,no_cue,,1.0,f,23.0,1.0,2023-11-01_10h22.33.209,visual-search,
,,1.3805249000433832,visual_cue,,1.0,f,23.0,1.0,2023-11-01_10h22.33.209,visual-search,
,,2.0658675997983664,mental_cue,,1.0,f,23.0,1.0,2023-11-01_10h22.33.209,visual-search,
,,0.7895172999706119,no_cue,,1.0,f,23.0,1.0,2023-11-01_10h22.33.209,visual-search,
,,0.9381127001252024,mental_cue,,1.0,f,23.0,1.0,2023-11-01_10h22.33.209,visual-search,
,,0.5669810001272708,no_cue,,1.0,f,23.0,1.0,2023-11-01_10h22.33.209,visual-search,
,,0.9101353001315148,mental_cue,,1.0,f,23.0,1.0,2023-11-01_10h22.33.209,visual-search,
,,1.2635554000735283,visual_cue,,1.0,f,23.0,1.0,2023-11-01_10h22.33.209,visual-search,
,,0.5652034000959247,no_cue,,1.0,f,23.0,1.0,2023-11-01_10h22.33.209,visual-search,
,,0.5610703998245299,mental_cue,,1.0,f,23.0,1.0,2023-11-01_10h22.33.209,visual-search,
,,0.9701819999609144,mental_cue,,1.0,f,23.0,1.0,2023-11-01_10h22.33.209,visual-search,
,,1.003252899972722,mental_cue,,1.0,f,23.0,1.0,2023-11-01_10h22.33.209,visual-search,
,,1.1731773000210524,visual_cue,,1.0,f,23.0,1.0,2023-11-01_10h22.33.209,visual-search,
,,0.6572630000300705,no_cue,,1.0,f,23.0,1.0,2023-11-01_10h22.33.209,visual-search,
,,1.0044515000190586,mental_cue,,1.0,f,23.0,1.0,2023-11-01_10h22.33.209,visual-search,
,,1.0029955999925733,visual_cue,,1.0,f,23.0,1.0,2023-11-01_10h22.33.209,visual-search,
,,0.6311186000239104,visual_cue,,1.0,f,23.0,1.0,2023-11-01_10h22.33.209,visual-search,
,,0.7189400000497699,visual_cue,,1.0,f,23.0,1.0,2023-11-01_10h22.33.209,visual-search,
,,0.8091438999399543,mental_cue,,1.0,f,23.0,1.0,2023-11-01_10h22.33.209,visual-search,
,,0.295888600172475,mental_cue,,1.0,f,23.0,1.0,2023-11-01_10h22.33.209,visual-search,
,,0.6351125999353826,no_cue,,1.0,f,23.0,1.0,2023-11-01_10h22.33.209,visual-search,
,,1.5177649001125246,no_cue,,1.0,f,23.0,1.0,2023-11-01_10h22.33.209,visual-search,
,,1.3873207999859003,visual_cue,,1.0,f,23.0,1.0,2023-11-01_10h22.33.209,visual-search,
,,0.6280213999561965,mental_cue,,1.0,f,23.0,1.0,2023-11-01_10h22.33.209,visual-search,
,,0.3905841000378132,no_cue,,1.0,f,23.0,1.0,2023-11-01_10h22.33.209,visual-search,
,,0.8830063999630511,visual_cue,,1.0,f,23.0,1.0,2023-11-01_10h22.33.209,visual-search,
,,2.553358100121841,visual_cue,,1.0,f,23.0,1.0,2023-11-01_10h22.33.209,visual-search,
,,0.7413468998856843,mental_cue,,1.0,f,23.0,1.0,2023-11-01_10h22.33.209,visual-search,
,,1.880869199987501,no_cue,,1.0,f,23.0,1.0,2023-11-01_10h22.33.209,visual-search,
,,1.4074407999869436,no_cue,,1.0,f,23.0,1.0,2023-11-01_10h22.33.209,visual-search,
,,0.8562425000127405,no_cue,,1.0,f,23.0,1.0,2023-11-01_10h22.33.209,visual-search,
,,0.4714844000991434,visual_cue,,1.0,f,23.0,1.0,2023-11-01_10h22.33.209,visual-search,
,,0.8085107000079006,visual_cue,,1.0,f,23.0,1.0,2023-11-01_10h22.33.209,visual-search,
,,1.3295586998574436,visual_cue,,1.0,f,23.0,1.0,2023-11-01_10h22.33.209,visual-search,
,,1.0122559999581426,mental_cue,,1.0,f,23.0,1.0,2023-11-01_10h22.33.209,visual-search,
,,3.041124900104478,no_cue,,1.0,f,23.0,1.0,2023-11-01_10h22.33.209,visual-search,
,,0.7525180999655277,visual_cue,,1.0,f,23.0,1.0,2023-11-01_10h22.33.209,visual-search,
,,0.5509019000455737,no_cue,,1.0,f,23.0,1.0,2023-11-01_10h22.33.209,visual-search,
,,1.7415237000677737,no_cue,,1.0,f,23.0,1.0,2023-11-01_10h22.33.209,visual-search,
,,0.6335145998746157,no_cue,,1.0,f,23.0,1.0,2023-11-01_10h22.33.209,visual-search,
,,0.6705686000641435,visual_cue,,1.0,f,23.0,1.0,2023-11-01_10h22.33.209,visual-search,
,,1.1567827998660505,visual_cue,,1.0,f,23.0,1.0,2023-11-01_10h22.33.209,visual-search,
,,0.8564387999940664,no_cue,,1.0,f,23.0,1.0,2023-11-01_10h22.33.209,visual-search,
,,1.1012020001653582,mental_cue,,1.0,f,23.0,1.0,2023-11-01_10h22.33.209,visual-search,
,,0.8499135000165552,mental_cue,,1.0,f,23.0,1.0,2023-11-01_10h22.33.209,visual-search,
,,1.1287806001491845,visual_cue,,1.0,f,23.0,1.0,2023-11-01_10h22.33.209,visual-search,
,,1.399005200015381,visual_cue,,1.0,f,23.0,1.0,2023-11-01_10h22.33.209,visual-search,
,,0.7731918999925256,visual_cue,,1.0,f,23.0,1.0,2023-11-01_10h22.33.209,visual-search,
,,0.9433444999158382,no_cue,,1.0,f,23.0,1.0,2023-11-01_10h22.33.209,visual-search,
,,0.8339463998563588,no_cue,,1.0,f,23.0,1.0,2023-11-01_10h22.33.209,visual-search,
,,0.9237190000712872,visual_cue,,1.0,f,23.0,1.0,2023-11-01_10h22.33.209,visual-search,
,,0.8690982998814434,mental_cue,,1.0,f,23.0,1.0,2023-11-01_10h22.33.209,visual-search,
,,,,2.0,,,,,,,
,,0.4883191999979317,mental_cue,,2.0,f,27.0,1.0,2023-11-02_17h46.36.907,visual-search,
,,1.387315999949351,no_cue,,2.0,f,27.0,1.0,2023-11-02_17h46.36.907,visual-search,
,,1.9515067001339048,mental_cue,,2.0,f,27.0,1.0,2023-11-02_17h46.36.907,visual-search,
,,1.8639294998720288,no_cue,,2.0,f,27.0,1.0,2023-11-02_17h46.36.907,visual-search,
,,1.4265833001118151,no_cue,,2.0,f,27.0,1.0,2023-11-02_17h46.36.907,visual-search,
,,2.5279958001337945,mental_cue,,2.0,f,27.0,1.0,2023-11-02_17h46.36.907,visual-search,
,,2.4474000001791865,visual_cue,,2.0,f,27.0,1.0,2023-11-02_17h46.36.907,visual-search,
,,1.1069555999711156,mental_cue,,2.0,f,27.0,1.0,2023-11-02_17h46.36.907,visual-search,
,,1.419786100042984,visual_cue,,2.0,f,27.0,1.0,2023-11-02_17h46.36.907,visual-search,
,,1.676535899983719,no_cue,,2.0,f,27.0,1.0,2023-11-02_17h46.36.907,visual-search,
,,0.7085146000608802,mental_cue,,2.0,f,27.0,1.0,2023-11-02_17h46.36.907,visual-search,
,,1.347717400174588,visual_cue,,2.0,f,27.0,1.0,2023-11-02_17h46.36.907,visual-search,
,,7.121588200097904,no_cue,,2.0,f,27.0,1.0,2023-11-02_17h46.36.907,visual-search,
,,1.0645904999691993,visual_cue,,2.0,f,27.0,1.0,2023-11-02_17h46.36.907,visual-search,
,,2.6300556000787765,no_cue,,2.0,f,27.0,1.0,2023-11-02_17h46.36.907,visual-search,
,,1.301045599859208,no_cue,,2.0,f,27.0,1.0,2023-11-02_17h46.36.907,visual-search,
,,1.2825253999326378,visual_cue,,2.0,f,27.0,1.0,2023-11-02_17h46.36.907,visual-search,
,,1.3396973998751491,mental_cue,,2.0,f,27.0,1.0,2023-11-02_17h46.36.907,visual-search,
,,2.1655598001088947,no_cue,,2.0,f,27.0,1.0,2023-11-02_17h46.36.907,visual-search,
,,1.6627700000535697,visual_cue,,2.0,f,27.0,1.0,2023-11-02_17h46.36.907,visual-search,
,,1.1981780000496656,mental_cue,,2.0,f,27.0,1.0,2023-11-02_17h46.36.907,visual-search,
,,1.3929330999962986,mental_cue,,2.0,f,27.0,1.0,2023-11-02_17h46.36.907,visual-search,
,,1.393497799988836,mental_cue,,2.0,f,27.0,1.0,2023-11-02_17h46.36.907,visual-search,
,,1.2723795000929383,visual_cue,,2.0,f,27.0,1.0,2023-11-02_17h46.36.907,visual-search,
,,1.6979972999542952,visual_cue,,2.0,f,27.0,1.0,2023-11-02_17h46.36.907,visual-search,
,,2.176465700147673,no_cue,,2.0,f,27.0,1.0,2023-11-02_17h46.36.907,visual-search,
,,0.7570915000978857,mental_cue,,2.0,f,27.0,1.0,2023-11-02_17h46.36.907,visual-search,
,,1.303656800184399,mental_cue,,2.0,f,27.0,1.0,2023-11-02_17h46.36.907,visual-search,
,,1.2608497999608517,visual_cue,,2.0,f,27.0,1.0,2023-11-02_17h46.36.907,visual-search,
,,1.0834277998656034,visual_cue,,2.0,f,27.0,1.0,2023-11-02_17h46.36.907,visual-search,
,,1.2521533998660743,mental_cue,,2.0,f,27.0,1.0,2023-11-02_17h46.36.907,visual-search,
,,1.2054814000148326,no_cue,,2.0,f,27.0,1.0,2023-11-02_17h46.36.907,visual-search,
,,0.982896100031212,no_cue,,2.0,f,27.0,1.0,2023-11-02_17h46.36.907,visual-search,
,,1.2800628000404686,visual_cue,,2.0,f,27.0,1.0,2023-11-02_17h46.36.907,visual-search,
,,1.254784199874848,mental_cue,,2.0,f,27.0,1.0,2023-11-02_17h46.36.907,visual-search,
,,1.0150419999845326,no_cue,,2.0,f,27.0,1.0,2023-11-02_17h46.36.907,visual-search,
,,2.079587100073695,no_cue,,2.0,f,27.0,1.0,2023-11-02_17h46.36.907,visual-search,
,,1.3181523000821471,mental_cue,,2.0,f,27.0,1.0,2023-11-02_17h46.36.907,visual-search,
,,1.0475733999628574,mental_cue,,2.0,f,27.0,1.0,2023-11-02_17h46.36.907,visual-search,
,,0.5798555000219494,visual_cue,,2.0,f,27.0,1.0,2023-11-02_17h46.36.907,visual-search,
,,1.2503789002075791,visual_cue,,2.0,f,27.0,1.0,2023-11-02_17h46.36.907,visual-search,
,,6.127502500079572,mental_cue,,2.0,f,27.0,1.0,2023-11-02_17h46.36.907,visual-search,
,,4.978173499926925,mental_cue,,2.0,f,27.0,1.0,2023-11-02_17h46.36.907,visual-search,
,,1.8231370002031329,mental_cue,,2.0,f,27.0,1.0,2023-11-02_17h46.36.907,visual-search,
,,1.4051916999742389,no_cue,,2.0,f,27.0,1.0,2023-11-02_17h46.36.907,visual-search,
,,1.7109609001781791,visual_cue,,2.0,f,27.0,1.0,2023-11-02_17h46.36.907,visual-search,
,,1.6165928000118583,no_cue,,2.0,f,27.0,1.0,2023-11-02_17h46.36.907,visual-search,
,,2.075476299971342,visual_cue,,2.0,f,27.0,1.0,2023-11-02_17h46.36.907,visual-search,
,,1.5600778998341411,no_cue,,2.0,f,27.0,1.0,2023-11-02_17h46.36.907,visual-search,
,,0.578238399932161,visual_cue,,2.0,f,27.0,1.0,2023-11-02_17h46.36.907,visual-search,
,,1.5892312999349087,no_cue,,2.0,f,27.0,1.0,2023-11-02_17h46.36.907,visual-search,
,,0.6464829000178725,visual_cue,,2.0,f,27.0,1.0,2023-11-02_17h46.36.907,visual-search,
,,1.658658199943602,no_cue,,2.0,f,27.0,1.0,2023-11-02_17h46.36.907,visual-search,
,,1.0330914000514897,mental_cue,,2.0,f,27.0,1.0,2023-11-02_17h46.36.907,visual-search,
,,1.0959697000216693,visual_cue,,2.0,f,27.0,1.0,2023-11-02_17h46.36.907,visual-search,
,,1.473100199829787,mental_cue,,2.0,f,27.0,1.0,2023-11-02_17h46.36.907,visual-search,
,,1.3007785000372678,no_cue,,2.0,f,27.0,1.0,2023-11-02_17h46.36.907,visual-search,
,,1.6242116999346763,no_cue,,2.0,f,27.0,1.0,2023-11-02_17h46.36.907,visual-search,
,,0.969325200188905,visual_cue,,2.0,f,27.0,1.0,2023-11-02_17h46.36.907,visual-search,
,,1.7010941000189632,visual_cue,,2.0,f,27.0,1.0,2023-11-02_17h46.36.907,visual-search,
,,,,3.0,,,,,,,
,,0.8854741000104696,mental_cue,,3.0,m,25.0,1.0,2023-11-04_14h09.58.511,visual-search,
,,1.3040416999720037,mental_cue,,3.0,m,25.0,1.0,2023-11-04_14h09.58.511,visual-search,
,,1.1750537001062185,mental_cue,,3.0,m,25.0,1.0,2023-11-04_14h09.58.511,visual-search,
,,1.500420199939981,no_cue,,3.0,m,25.0,1.0,2023-11-04_14h09.58.511,visual-search,
,,1.0293070999905467,visual_cue,,3.0,m,25.0,1.0,2023-11-04_14h09.58.511,visual-search,
,,1.139535499969497,mental_cue,,3.0,m,25.0,1.0,2023-11-04_14h09.58.511,visual-search,
,,0.8176927999593318,visual_cue,,3.0,m,25.0,1.0,2023-11-04_14h09.58.511,visual-search,
,,1.0176304001361132,mental_cue,,3.0,m,25.0,1.0,2023-11-04_14h09.58.511,visual-search,
,,0.8407238000072539,visual_cue,,3.0,m,25.0,1.0,2023-11-04_14h09.58.511,visual-search,
,,1.6335787998978049,no_cue,,3.0,m,25.0,1.0,2023-11-04_14h09.58.511,visual-search,
,,0.5438495001289994,no_cue,,3.0,m,25.0,1.0,2023-11-04_14h09.58.511,visual-search,
,,0.8246978998649865,no_cue,,3.0,m,25.0,1.0,2023-11-04_14h09.58.511,visual-search,
,,0.8882626001723111,visual_cue,,3.0,m,25.0,1.0,2023-11-04_14h09.58.511,visual-search,
,,0.7592849000357091,visual_cue,,3.0,m,25.0,1.0,2023-11-04_14h09.58.511,visual-search,
,,2.656067500123754,no_cue,,3.0,m,25.0,1.0,2023-11-04_14h09.58.511,visual-search,
,,0.7421426000073552,no_cue,,3.0,m,25.0,1.0,2023-11-04_14h09.58.511,visual-search,
,,1.6568399001844227,visual_cue,,3.0,m,25.0,1.0,2023-11-04_14h09.58.511,visual-search,
,,1.0766614000312984,visual_cue,,3.0,m,25.0,1.0,2023-11-04_14h09.58.511,visual-search,
,,0.8341791001148522,no_cue,,3.0,m,25.0,1.0,2023-11-04_14h09.58.511,visual-search,
,,1.1525097999256104,no_cue,,3.0,m,25.0,1.0,2023-11-04_14h09.58.511,visual-search,
,,0.9625850000884384,no_cue,,3.0,m,25.0,1.0,2023-11-04_14h09.58.511,visual-search,
,,1.6998405000194907,mental_cue,,3.0,m,25.0,1.0,2023-11-04_14h09.58.511,visual-search,
,,1.6446831000503153,no_cue,,3.0,m,25.0,1.0,2023-11-04_14h09.58.511,visual-search,
,,0.8603980999905616,visual_cue,,3.0,m,25.0,1.0,2023-11-04_14h09.58.511,visual-search,
,,0.953329199925065,visual_cue,,3.0,m,25.0,1.0,2023-11-04_14h09.58.511,visual-search,
,,0.9782007001340388,visual_cue,,3.0,m,25.0,1.0,2023-11-04_14h09.58.511,visual-search,
,,0.9686241000890732,mental_cue,,3.0,m,25.0,1.0,2023-11-04_14h09.58.511,visual-search,
,,1.4532737000845373,mental_cue,,3.0,m,25.0,1.0,2023-11-04_14h09.58.511,visual-search,
,,1.1695912999566644,visual_cue,,3.0,m,25.0,1.0,2023-11-04_14h09.58.511,visual-search,
,,0.96167270001024,mental_cue,,3.0,m,25.0,1.0,2023-11-04_14h09.58.511,visual-search,
,,1.922504600137472,mental_cue,,3.0,m,25.0,1.0,2023-11-04_14h09.58.511,visual-search,
,,1.0541322999633849,mental_cue,,3.0,m,25.0,1.0,2023-11-04_14h09.58.511,visual-search,
,,0.7688326998613775,mental_cue,,3.0,m,25.0,1.0,2023-11-04_14h09.58.511,visual-search,
,,0.6358126001432538,mental_cue,,3.0,m,25.0,1.0,2023-11-04_14h09.58.511,visual-search,
,,0.7242228998802602,visual_cue,,3.0,m,25.0,1.0,2023-11-04_14h09.58.511,visual-search,
,,1.6979802001733333,visual_cue,,3.0,m,25.0,1.0,2023-11-04_14h09.58.511,visual-search,
,,1.30401030019857,visual_cue,,3.0,m,25.0,1.0,2023-11-04_14h09.58.511,visual-search,
,,0.6820352000650018,mental_cue,,3.0,m,25.0,1.0,2023-11-04_14h09.58.511,visual-search,
,,0.8508697999641299,visual_cue,,3.0,m,25.0,1.0,2023-11-04_14h09.58.511,visual-search,
,,0.9432149999774992,no_cue,,3.0,m,25.0,1.0,2023-11-04_14h09.58.511,visual-search,
,,1.3272269000299275,no_cue,,3.0,m,25.0,1.0,2023-11-04_14h09.58.511,visual-search,
,,0.7916508999187499,mental_cue,,3.0,m,25.0,1.0,2023-11-04_14h09.58.511,visual-search,
,,7.385784700047225,no_cue,,3.0,m,25.0,1.0,2023-11-04_14h09.58.511,visual-search,
,,0.8516671999823302,visual_cue,,3.0,m,25.0,1.0,2023-11-04_14h09.58.511,visual-search,
,,1.4794866999145595,visual_cue,,3.0,m,25.0,1.0,2023-11-04_14h09.58.511,visual-search,
,,1.8944083000533285,mental_cue,,3.0,m,25.0,1.0,2023-11-04_14h09.58.511,visual-search,
,,2.5736941001378,no_cue,,3.0,m,25.0,1.0,2023-11-04_14h09.58.511,visual-search,
,,0.5056493999436498,no_cue,,3.0,m,25.0,1.0,2023-11-04_14h09.58.511,visual-search,
,,1.322936000069603,visual_cue,,3.0,m,25.0,1.0,2023-11-04_14h09.58.511,visual-search,
,,2.251871299929917,no_cue,,3.0,m,25.0,1.0,2023-11-04_14h09.58.511,visual-search,
,,0.6416740000713617,mental_cue,,3.0,m,25.0,1.0,2023-11-04_14h09.58.511,visual-search,
,,1.5736006998922676,visual_cue,,3.0,m,25.0,1.0,2023-11-04_14h09.58.511,visual-search,
,,1.1011431000661105,no_cue,,3.0,m,25.0,1.0,2023-11-04_14h09.58.511,visual-search,
,,3.3935046000406146,no_cue,,3.0,m,25.0,1.0,2023-11-04_14h09.58.511,visual-search,
,,1.080963599961251,mental_cue,,3.0,m,25.0,1.0,2023-11-04_14h09.58.511,visual-search,
,,0.8919279000256211,mental_cue,,3.0,m,25.0,1.0,2023-11-04_14h09.58.511,visual-search,
,,1.7532083000987768,mental_cue,,3.0,m,25.0,1.0,2023-11-04_14h09.58.511,visual-search,
,,1.0046739000827074,no_cue,,3.0,m,25.0,1.0,2023-11-04_14h09.58.511,visual-search,
,,1.623758900212124,visual_cue,,3.0,m,25.0,1.0,2023-11-04_14h09.58.511,visual-search,
,,1.1653119002003225,no_cue,,3.0,m,25.0,1.0,2023-11-04_14h09.58.511,visual-search,
,,,,2.0,,,,,,,
,,1.7022846001200378,mental_cue,,4.0,m,25.0,1.0,2023-11-04_14h31.49.574,visual-search,
,,1.3902545999735594,no_cue,,4.0,m,25.0,1.0,2023-11-04_14h31.49.574,visual-search,
,,0.8444052999839187,visual_cue,,4.0,m,25.0,1.0,2023-11-04_14h31.49.574,visual-search,
,,0.8602708999533206,no_cue,,4.0,m,25.0,1.0,2023-11-04_14h31.49.574,visual-search,
,,1.3042162999045104,no_cue,,4.0,m,25.0,1.0,2023-11-04_14h31.49.574,visual-search,
,,1.3116629999130964,visual_cue,,4.0,m,25.0,1.0,2023-11-04_14h31.49.574,visual-search,
,,1.01954590016976,no_cue,,4.0,m,25.0,1.0,2023-11-04_14h31.49.574,visual-search,
,,0.9144186000339688,visual_cue,,4.0,m,25.0,1.0,2023-11-04_14h31.49.574,visual-search,
,,1.166501000057906,mental_cue,,4.0,m,25.0,1.0,2023-11-04_14h31.49.574,visual-search,
,,2.0789846000261605,no_cue,,4.0,m,25.0,1.0,2023-11-04_14h31.49.574,visual-search,
,,0.7174024998676032,no_cue,,4.0,m,25.0,1.0,2023-11-04_14h31.49.574,visual-search,
,,1.1234224000945687,mental_cue,,4.0,m,25.0,1.0,2023-11-04_14h31.49.574,visual-search,
,,1.2297335001640022,visual_cue,,4.0,m,25.0,1.0,2023-11-04_14h31.49.574,visual-search,
,,1.7341721998527646,visual_cue,,4.0,m,25.0,1.0,2023-11-04_14h31.49.574,visual-search,
,,0.9080555001273752,visual_cue,,4.0,m,25.0,1.0,2023-11-04_14h31.49.574,visual-search,
,,1.1109573999419808,no_cue,,4.0,m,25.0,1.0,2023-11-04_14h31.49.574,visual-search,
,,1.2255132999271154,mental_cue,,4.0,m,25.0,1.0,2023-11-04_14h31.49.574,visual-search,
,,0.4990976999979466,mental_cue,,4.0,m,25.0,1.0,2023-11-04_14h31.49.574,visual-search,
,,0.4206363002303988,mental_cue,,4.0,m,25.0,1.0,2023-11-04_14h31.49.574,visual-search,
,,0.816956500057131,mental_cue,,4.0,m,25.0,1.0,2023-11-04_14h31.49.574,visual-search,
,,0.3857523000333458,no_cue,,4.0,m,25.0,1.0,2023-11-04_14h31.49.574,visual-search,
,,2.2781241999473423,visual_cue,,4.0,m,25.0,1.0,2023-11-04_14h31.49.574,visual-search,
,,1.1903280999977142,no_cue,,4.0,m,25.0,1.0,2023-11-04_14h31.49.574,visual-search,
,,0.6257292998488992,visual_cue,,4.0,m,25.0,1.0,2023-11-04_14h31.49.574,visual-search,
,,1.942782599944621,visual_cue,,4.0,m,25.0,1.0,2023-11-04_14h31.49.574,visual-search,
,,0.4370787998195737,no_cue,,4.0,m,25.0,1.0,2023-11-04_14h31.49.574,visual-search,
,,0.9799454999156296,no_cue,,4.0,m,25.0,1.0,2023-11-04_14h31.49.574,visual-search,
,,0.875764099881053,no_cue,,4.0,m,25.0,1.0,2023-11-04_14h31.49.574,visual-search,
,,0.8666195999830961,mental_cue,,4.0,m,25.0,1.0,2023-11-04_14h31.49.574,visual-search,
,,1.4172341001685709,visual_cue,,4.0,m,25.0,1.0,2023-11-04_14h31.49.574,visual-search,
,,1.5030971998348832,no_cue,,4.0,m,25.0,1.0,2023-11-04_14h31.49.574,visual-search,
,,1.3335492999758571,mental_cue,,4.0,m,25.0,1.0,2023-11-04_14h31.49.574,visual-search,
,,1.7406651999335736,no_cue,,4.0,m,25.0,1.0,2023-11-04_14h31.49.574,visual-search,
,,1.0406253000255674,visual_cue,,4.0,m,25.0,1.0,2023-11-04_14h31.49.574,visual-search,
,,0.6915692999027669,visual_cue,,4.0,m,25.0,1.0,2023-11-04_14h31.49.574,visual-search,
,,0.5828430999536067,mental_cue,,4.0,m,25.0,1.0,2023-11-04_14h31.49.574,visual-search,
,,1.1522330997977406,visual_cue,,4.0,m,25.0,1.0,2023-11-04_14h31.49.574,visual-search,
,,0.4373608001042157,mental_cue,,4.0,m,25.0,1.0,2023-11-04_14h31.49.574,visual-search,
,,0.4356187998782843,mental_cue,,4.0,m,25.0,1.0,2023-11-04_14h31.49.574,visual-search,
,,0.9110611998476088,no_cue,,4.0,m,25.0,1.0,2023-11-04_14h31.49.574,visual-search,
,,0.4242231000680476,visual_cue,,4.0,m,25.0,1.0,2023-11-04_14h31.49.574,visual-search,
,,1.041421900037676,mental_cue,,4.0,m,25.0,1.0,2023-11-04_14h31.49.574,visual-search,
,,0.7342369998805225,mental_cue,,4.0,m,25.0,1.0,2023-11-04_14h31.49.574,visual-search,
,,0.4156360998749733,visual_cue,,4.0,m,25.0,1.0,2023-11-04_14h31.49.574,visual-search,
,,2.5325160999782383,no_cue,,4.0,m,25.0,1.0,2023-11-04_14h31.49.574,visual-search,
,,1.4711691001430154,mental_cue,,4.0,m,25.0,1.0,2023-11-04_14h31.49.574,visual-search,
,,1.3575027000624686,visual_cue,,4.0,m,25.0,1.0,2023-11-04_14h31.49.574,visual-search,
,,0.683061599964276,no_cue,,4.0,m,25.0,1.0,2023-11-04_14h31.49.574,visual-search,
,,0.6506909998133779,visual_cue,,4.0,m,25.0,1.0,2023-11-04_14h31.49.574,visual-search,
,,1.275597299914807,visual_cue,,4.0,m,25.0,1.0,2023-11-04_14h31.49.574,visual-search,
,,3.397120399866253,visual_cue,,4.0,m,25.0,1.0,2023-11-04_14h31.49.574,visual-search,
,,1.4866377001162618,no_cue,,4.0,m,25.0,1.0,2023-11-04_14h31.49.574,visual-search,
,,1.4244555998593569,mental_cue,,4.0,m,25.0,1.0,2023-11-04_14h31.49.574,visual-search,
,,0.957476600073278,no_cue,,4.0,m,25.0,1.0,2023-11-04_14h31.49.574,visual-search,
,,0.8272454000543803,mental_cue,,4.0,m,25.0,1.0,2023-11-04_14h31.49.574,visual-search,
,,0.8753405001480132,no_cue,,4.0,m,25.0,1.0,2023-11-04_14h31.49.574,visual-search,
,,0.8826797001529485,mental_cue,,4.0,m,25.0,1.0,2023-11-04_14h31.49.574,visual-search,
,,1.503284100210294,mental_cue,,4.0,m,25.0,1.0,2023-11-04_14h31.49.574,visual-search,
,,0.7167169000022113,mental_cue,,4.0,m,25.0,1.0,2023-11-04_14h31.49.574,visual-search,
,,1.5166724999435246,visual_cue,,4.0,m,25.0,1.0,2023-11-04_14h31.49.574,visual-search,
,,,,4.0,,,,,,,
,,1.3376581000629812,mental_cue,,5.0,m,25.0,1.0,2023-11-04_14h46.11.662,visual-search,
,,4.76922670006752,mental_cue,,5.0,m,25.0,1.0,2023-11-04_14h46.11.662,visual-search,
,,0.8545054998248816,no_cue,,5.0,m,25.0,1.0,2023-11-04_14h46.11.662,visual-search,
,,0.8913700999692082,visual_cue,,5.0,m,25.0,1.0,2023-11-04_14h46.11.662,visual-search,
,,0.7265882999636233,mental_cue,,5.0,m,25.0,1.0,2023-11-04_14h46.11.662,visual-search,
,,0.4991520999465137,no_cue,,5.0,m,25.0,1.0,2023-11-04_14h46.11.662,visual-search,
,,1.5564315000083295,no_cue,,5.0,m,25.0,1.0,2023-11-04_14h46.11.662,visual-search,
,,1.005632999818772,mental_cue,,5.0,m,25.0,1.0,2023-11-04_14h46.11.662,visual-search,
,,0.7508203000761569,mental_cue,,5.0,m,25.0,1.0,2023-11-04_14h46.11.662,visual-search,
,,1.0954605001024902,mental_cue,,5.0,m,25.0,1.0,2023-11-04_14h46.11.662,visual-search,
,,0.592451199889183,mental_cue,,5.0,m,25.0,1.0,2023-11-04_14h46.11.662,visual-search,
,,0.5601252000778913,visual_cue,,5.0,m,25.0,1.0,2023-11-04_14h46.11.662,visual-search,
,,0.8183619999326766,no_cue,,5.0,m,25.0,1.0,2023-11-04_14h46.11.662,visual-search,
,,0.8939622000325471,no_cue,,5.0,m,25.0,1.0,2023-11-04_14h46.11.662,visual-search,
,,2.249812699854374,no_cue,,5.0,m,25.0,1.0,2023-11-04_14h46.11.662,visual-search,
,,0.9544618998188524,mental_cue,,5.0,m,25.0,1.0,2023-11-04_14h46.11.662,visual-search,
,,0.6447723000310361,visual_cue,,5.0,m,25.0,1.0,2023-11-04_14h46.11.662,visual-search,
,,0.5966832998674363,mental_cue,,5.0,m,25.0,1.0,2023-11-04_14h46.11.662,visual-search,
,,0.9557622000575066,mental_cue,,5.0,m,25.0,1.0,2023-11-04_14h46.11.662,visual-search,
,,0.5823202999308705,visual_cue,,5.0,m,25.0,1.0,2023-11-04_14h46.11.662,visual-search,
,,0.6065541000571102,visual_cue,,5.0,m,25.0,1.0,2023-11-04_14h46.11.662,visual-search,
,,0.6221727000083774,mental_cue,,5.0,m,25.0,1.0,2023-11-04_14h46.11.662,visual-search,
,,0.6814663000404835,visual_cue,,5.0,m,25.0,1.0,2023-11-04_14h46.11.662,visual-search,
,,0.5842412998899817,no_cue,,5.0,m,25.0,1.0,2023-11-04_14h46.11.662,visual-search,
,,0.8263124001678079,visual_cue,,5.0,m,25.0,1.0,2023-11-04_14h46.11.662,visual-search,
,,0.6715039999689907,visual_cue,,5.0,m,25.0,1.0,2023-11-04_14h46.11.662,visual-search,
,,1.5234394001308829,visual_cue,,5.0,m,25.0,1.0,2023-11-04_14h46.11.662,visual-search,
,,0.8429601001553237,visual_cue,,5.0,m,25.0,1.0,2023-11-04_14h46.11.662,visual-search,
,,0.9475102999713272,mental_cue,,5.0,m,25.0,1.0,2023-11-04_14h46.11.662,visual-search,
,,1.0072864999528974,mental_cue,,5.0,m,25.0,1.0,2023-11-04_14h46.11.662,visual-search,
,,0.6328466001432389,visual_cue,,5.0,m,25.0,1.0,2023-11-04_14h46.11.662,visual-search,
,,1.160373699851334,visual_cue,,5.0,m,25.0,1.0,2023-11-04_14h46.11.662,visual-search,
,,0.8584044999442995,mental_cue,,5.0,m,25.0,1.0,2023-11-04_14h46.11.662,visual-search,
,,0.7037456999532878,no_cue,,5.0,m,25.0,1.0,2023-11-04_14h46.11.662,visual-search,
,,0.7818427002057433,mental_cue,,5.0,m,25.0,1.0,2023-11-04_14h46.11.662,visual-search,
,,0.5802081001456827,no_cue,,5.0,m,25.0,1.0,2023-11-04_14h46.11.662,visual-search,
,,0.3845989999826997,no_cue,,5.0,m,25.0,1.0,2023-11-04_14h46.11.662,visual-search,
,,0.542918800143525,no_cue,,5.0,m,25.0,1.0,2023-11-04_14h46.11.662,visual-search,
,,0.925693100085482,visual_cue,,5.0,m,25.0,1.0,2023-11-04_14h46.11.662,visual-search,
,,0.6563237998634577,no_cue,,5.0,m,25.0,1.0,2023-11-04_14h46.11.662,visual-search,
,,0.9734275001101196,no_cue,,5.0,m,25.0,1.0,2023-11-04_14h46.11.662,visual-search,
,,1.7044615999329835,visual_cue,,5.0,m,25.0,1.0,2023-11-04_14h46.11.662,visual-search,
,,0.6086596001405269,mental_cue,,5.0,m,25.0,1.0,2023-11-04_14h46.11.662,visual-search,
,,2.8111488001886755,no_cue,,5.0,m,25.0,1.0,2023-11-04_14h46.11.662,visual-search,
,,0.6071336001623422,mental_cue,,5.0,m,25.0,1.0,2023-11-04_14h46.11.662,visual-search,
,,0.7791458999272436,no_cue,,5.0,m,25.0,1.0,2023-11-04_14h46.11.662,visual-search,
,,0.6067836999427527,visual_cue,,5.0,m,25.0,1.0,2023-11-04_14h46.11.662,visual-search,
,,1.0211672999430448,visual_cue,,5.0,m,25.0,1.0,2023-11-04_14h46.11.662,visual-search,
,,1.2454403000883758,mental_cue,,5.0,m,25.0,1.0,2023-11-04_14h46.11.662,visual-search,
,,0.7829601999837905,no_cue,,5.0,m,25.0,1.0,2023-11-04_14h46.11.662,visual-search,
,,0.67734199995175,visual_cue,,5.0,m,25.0,1.0,2023-11-04_14h46.11.662,visual-search,
,,0.5797143001109362,mental_cue,,5.0,m,25.0,1.0,2023-11-04_14h46.11.662,visual-search,
,,0.6051711000036448,no_cue,,5.0,m,25.0,1.0,2023-11-04_14h46.11.662,visual-search,
,,0.5943834998179227,no_cue,,5.0,m,25.0,1.0,2023-11-04_14h46.11.662,visual-search,
,,1.6868644999340177,no_cue,,5.0,m,25.0,1.0,2023-11-04_14h46.11.662,visual-search,
,,0.5710857000667602,visual_cue,,5.0,m,25.0,1.0,2023-11-04_14h46.11.662,visual-search,
,,1.1254046999383718,no_cue,,5.0,m,25.0,1.0,2023-11-04_14h46.11.662,visual-search,
,,1.3154561000410467,visual_cue,,5.0,m,25.0,1.0,2023-11-04_14h46.11.662,visual-search,
,,0.710123100085184,visual_cue,,5.0,m,25.0,1.0,2023-11-04_14h46.11.662,visual-search,
,,0.5847688999492675,mental_cue,,5.0,m,25.0,1.0,2023-11-04_14h46.11.662,visual-search,
,,,,5.0,,,,,,,
,,1.0284061999991536,visual_cue,,6.0,m,25.0,1.0,2023-11-04_15h02.45.105,visual-search,
,,0.906593699939549,no_cue,,6.0,m,25.0,1.0,2023-11-04_15h02.45.105,visual-search,
,,0.9597035001497716,mental_cue,,6.0,m,25.0,1.0,2023-11-04_15h02.45.105,visual-search,
,,1.5667750001884997,visual_cue,,6.0,m,25.0,1.0,2023-11-04_15h02.45.105,visual-search,
,,0.5771555998362601,no_cue,,6.0,m,25.0,1.0,2023-11-04_15h02.45.105,visual-search,
,,1.3756945999339223,no_cue,,6.0,m,25.0,1.0,2023-11-04_15h02.45.105,visual-search,
,,1.0419666999951005,visual_cue,,6.0,m,25.0,1.0,2023-11-04_15h02.45.105,visual-search,
,,0.6450207000598311,mental_cue,,6.0,m,25.0,1.0,2023-11-04_15h02.45.105,visual-search,
,,1.0048381998203697,visual_cue,,6.0,m,25.0,1.0,2023-11-04_15h02.45.105,visual-search,
,,0.8895322999451309,mental_cue,,6.0,m,25.0,1.0,2023-11-04_15h02.45.105,visual-search,
,,1.004734700080007,mental_cue,,6.0,m,25.0,1.0,2023-11-04_15h02.45.105,visual-search,
,,1.032048200024292,mental_cue,,6.0,m,25.0,1.0,2023-11-04_15h02.45.105,visual-search,
,,1.2502933000214398,no_cue,,6.0,m,25.0,1.0,2023-11-04_15h02.45.105,visual-search,
,,0.9549695998430252,visual_cue,,6.0,m,25.0,1.0,2023-11-04_15h02.45.105,visual-search,
,,0.6296896999701858,visual_cue,,6.0,m,25.0,1.0,2023-11-04_15h02.45.105,visual-search,
,,0.5356453000567853,mental_cue,,6.0,m,25.0,1.0,2023-11-04_15h02.45.105,visual-search,
,,1.0775304001290351,no_cue,,6.0,m,25.0,1.0,2023-11-04_15h02.45.105,visual-search,
,,0.5722312999423593,no_cue,,6.0,m,25.0,1.0,2023-11-04_15h02.45.105,visual-search,
,,1.1771363001316786,mental_cue,,6.0,m,25.0,1.0,2023-11-04_15h02.45.105,visual-search,
,,1.7663453998975456,no_cue,,6.0,m,25.0,1.0,2023-11-04_15h02.45.105,visual-search,
,,0.666203900007531,mental_cue,,6.0,m,25.0,1.0,2023-11-04_15h02.45.105,visual-search,
,,0.7901375000365078,no_cue,,6.0,m,25.0,1.0,2023-11-04_15h02.45.105,visual-search,
,,0.8120633999351412,no_cue,,6.0,m,25.0,1.0,2023-11-04_15h02.45.105,visual-search,
,,0.6943393999245018,no_cue,,6.0,m,25.0,1.0,2023-11-04_15h02.45.105,visual-search,
,,1.1781365999486295,no_cue,,6.0,m,25.0,1.0,2023-11-04_15h02.45.105,visual-search,
,,0.9012410000432284,visual_cue,,6.0,m,25.0,1.0,2023-11-04_15h02.45.105,visual-search,
,,1.0197996001224965,no_cue,,6.0,m,25.0,1.0,2023-11-04_15h02.45.105,visual-search,
,,1.232215299969539,mental_cue,,6.0,m,25.0,1.0,2023-11-04_15h02.45.105,visual-search,
,,0.6825612999964505,visual_cue,,6.0,m,25.0,1.0,2023-11-04_15h02.45.105,visual-search,
,,0.7251273998990655,visual_cue,,6.0,m,25.0,1.0,2023-11-04_15h02.45.105,visual-search,
,,1.459416199941188,mental_cue,,6.0,m,25.0,1.0,2023-11-04_15h02.45.105,visual-search,
,,1.1244717000517994,mental_cue,,6.0,m,25.0,1.0,2023-11-04_15h02.45.105,visual-search,
,,0.8590169998351485,visual_cue,,6.0,m,25.0,1.0,2023-11-04_15h02.45.105,visual-search,
,,1.0440309999976307,mental_cue,,6.0,m,25.0,1.0,2023-11-04_15h02.45.105,visual-search,
,,0.909864200046286,no_cue,,6.0,m,25.0,1.0,2023-11-04_15h02.45.105,visual-search,
,,0.857898100046441,no_cue,,6.0,m,25.0,1.0,2023-11-04_15h02.45.105,visual-search,
,,2.9948351001366973,mental_cue,,6.0,m,25.0,1.0,2023-11-04_15h02.45.105,visual-search,
,,0.4013710999861359,mental_cue,,6.0,m,25.0,1.0,2023-11-04_15h02.45.105,visual-search,
,,0.5620722000021487,visual_cue,,6.0,m,25.0,1.0,2023-11-04_15h02.45.105,visual-search,
,,1.1950427999254316,visual_cue,,6.0,m,25.0,1.0,2023-11-04_15h02.45.105,visual-search,
,,0.6003079998772591,visual_cue,,6.0,m,25.0,1.0,2023-11-04_15h02.45.105,visual-search,
,,0.7751337999943644,visual_cue,,6.0,m,25.0,1.0,2023-11-04_15h02.45.105,visual-search,
,,0.963378099957481,visual_cue,,6.0,m,25.0,1.0,2023-11-04_15h02.45.105,visual-search,
,,1.83837109990418,visual_cue,,6.0,m,25.0,1.0,2023-11-04_15h02.45.105,visual-search,
,,0.7257677000015974,mental_cue,,6.0,m,25.0,1.0,2023-11-04_15h02.45.105,visual-search,
,,0.7810979001224041,visual_cue,,6.0,m,25.0,1.0,2023-11-04_15h02.45.105,visual-search,
,,0.8130578000564128,no_cue,,6.0,m,25.0,1.0,2023-11-04_15h02.45.105,visual-search,
,,0.5175423000473529,mental_cue,,6.0,m,25.0,1.0,2023-11-04_15h02.45.105,visual-search,
,,0.688691999996081,mental_cue,,6.0,m,25.0,1.0,2023-11-04_15h02.45.105,visual-search,
,,0.9189756999257952,no_cue,,6.0,m,25.0,1.0,2023-11-04_15h02.45.105,visual-search,
,,1.207707399968058,no_cue,,6.0,m,25.0,1.0,2023-11-04_15h02.45.105,visual-search,
,,0.8289966001175344,visual_cue,,6.0,m,25.0,1.0,2023-11-04_15h02.45.105,visual-search,
,,0.8155559999868274,mental_cue,,6.0,m,25.0,1.0,2023-11-04_15h02.45.105,visual-search,
,,1.4234619000926614,visual_cue,,6.0,m,25.0,1.0,2023-11-04_15h02.45.105,visual-search,
,,0.373822399880737,mental_cue,,6.0,m,25.0,1.0,2023-11-04_15h02.45.105,visual-search,
,,1.7937026999425143,no_cue,,6.0,m,25.0,1.0,2023-11-04_15h02.45.105,visual-search,
,,1.5676189998630434,visual_cue,,6.0,m,25.0,1.0,2023-11-04_15h02.45.105,visual-search,
,,0.9080911001656204,no_cue,,6.0,m,25.0,1.0,2023-11-04_15h02.45.105,visual-search,
,,1.148524299962446,mental_cue,,6.0,m,25.0,1.0,2023-11-04_15h02.45.105,visual-search,
,,0.6188952000811696,no_cue,,6.0,m,25.0,1.0,2023-11-04_15h02.45.105,visual-search,
,,,,4.0,,,,,,,
,,1.3737890999764204,visual_cue,,7.0,m,24.0,1.0,2023-11-07_18h31.34.883,visual-search,
,,1.10159289999865,no_cue,,7.0,m,24.0,1.0,2023-11-07_18h31.34.883,visual-search,
,,0.8310793999989983,visual_cue,,7.0,m,24.0,1.0,2023-11-07_18h31.34.883,visual-search,
,,1.0669103999971412,visual_cue,,7.0,m,24.0,1.0,2023-11-07_18h31.34.883,visual-search,
,,0.8382382999989204,no_cue,,7.0,m,24.0,1.0,2023-11-07_18h31.34.883,visual-search,
,,1.0559579000109809,visual_cue,,7.0,m,24.0,1.0,2023-11-07_18h31.34.883,visual-search,
,,0.8681464999972377,visual_cue,,7.0,m,24.0,1.0,2023-11-07_18h31.34.883,visual-search,
,,0.9738014000176918,no_cue,,7.0,m,24.0,1.0,2023-11-07_18h31.34.883,visual-search,
,,0.6736812999879476,mental_cue,,7.0,m,24.0,1.0,2023-11-07_18h31.34.883,visual-search,
,,0.6502641999977641,visual_cue,,7.0,m,24.0,1.0,2023-11-07_18h31.34.883,visual-search,
,,0.8976467000029515,mental_cue,,7.0,m,24.0,1.0,2023-11-07_18h31.34.883,visual-search,
,,0.925518899981398,no_cue,,7.0,m,24.0,1.0,2023-11-07_18h31.34.883,visual-search,
,,1.130812400020659,mental_cue,,7.0,m,24.0,1.0,2023-11-07_18h31.34.883,visual-search,
,,0.8050192999944557,no_cue,,7.0,m,24.0,1.0,2023-11-07_18h31.34.883,visual-search,
,,0.992364700010512,visual_cue,,7.0,m,24.0,1.0,2023-11-07_18h31.34.883,visual-search,
,,1.5480941999994684,mental_cue,,7.0,m,24.0,1.0,2023-11-07_18h31.34.883,visual-search,
,,0.8949966999934986,no_cue,,7.0,m,24.0,1.0,2023-11-07_18h31.34.883,visual-search,
,,0.8063853999774437,visual_cue,,7.0,m,24.0,1.0,2023-11-07_18h31.34.883,visual-search,
,,1.7641855000110809,mental_cue,,7.0,m,24.0,1.0,2023-11-07_18h31.34.883,visual-search,
,,0.8077175999933388,visual_cue,,7.0,m,24.0,1.0,2023-11-07_18h31.34.883,visual-search,
,,1.0248148000100628,visual_cue,,7.0,m,24.0,1.0,2023-11-07_18h31.34.883,visual-search,
,,0.8876301999844145,mental_cue,,7.0,m,24.0,1.0,2023-11-07_18h31.34.883,visual-search,
,,1.8014537999988531,mental_cue,,7.0,m,24.0,1.0,2023-11-07_18h31.34.883,visual-search,
,,0.7956992000108585,mental_cue,,7.0,m,24.0,1.0,2023-11-07_18h31.34.883,visual-search,
,,0.7657614999916404,no_cue,,7.0,m,24.0,1.0,2023-11-07_18h31.34.883,visual-search,
,,0.7284611999930348,no_cue,,7.0,m,24.0,1.0,2023-11-07_18h31.34.883,visual-search,
,,1.1185798000078648,mental_cue,,7.0,m,24.0,1.0,2023-11-07_18h31.34.883,visual-search,
,,0.721349100000225,mental_cue,,7.0,m,24.0,1.0,2023-11-07_18h31.34.883,visual-search,
,,0.9475179000000936,visual_cue,,7.0,m,24.0,1.0,2023-11-07_18h31.34.883,visual-search,
,,0.7935628000122961,no_cue,,7.0,m,24.0,1.0,2023-11-07_18h31.34.883,visual-search,
,,0.9773767000006046,mental_cue,,7.0,m,24.0,1.0,2023-11-07_18h31.34.883,visual-search,
,,0.6612498000031337,visual_cue,,7.0,m,24.0,1.0,2023-11-07_18h31.34.883,visual-search,
,,0.8995108999952208,no_cue,,7.0,m,24.0,1.0,2023-11-07_18h31.34.883,visual-search,
,,0.8032938000105787,mental_cue,,7.0,m,24.0,1.0,2023-11-07_18h31.34.883,visual-search,
,,0.8946494999981951,no_cue,,7.0,m,24.0,1.0,2023-11-07_18h31.34.883,visual-search,
,,0.8246514999773353,mental_cue,,7.0,m,24.0,1.0,2023-11-07_18h31.34.883,visual-search,
,,1.4481418000068516,visual_cue,,7.0,m,24.0,1.0,2023-11-07_18h31.34.883,visual-search,
,,1.5933977999957278,mental_cue,,7.0,m,24.0,1.0,2023-11-07_18h31.34.883,visual-search,
,,0.847629700001562,no_cue,,7.0,m,24.0,1.0,2023-11-07_18h31.34.883,visual-search,
,,0.7886839999991935,visual_cue,,7.0,m,24.0,1.0,2023-11-07_18h31.34.883,visual-search,
,,0.7403229000046849,no_cue,,7.0,m,24.0,1.0,2023-11-07_18h31.34.883,visual-search,
,,1.2288223000068683,no_cue,,7.0,m,24.0,1.0,2023-11-07_18h31.34.883,visual-search,
,,1.0070539000153076,visual_cue,,7.0,m,24.0,1.0,2023-11-07_18h31.34.883,visual-search,
,,0.9616790000000036,no_cue,,7.0,m,24.0,1.0,2023-11-07_18h31.34.883,visual-search,
,,1.5953513999993447,visual_cue,,7.0,m,24.0,1.0,2023-11-07_18h31.34.883,visual-search,
,,1.47364139999263,no_cue,,7.0,m,24.0,1.0,2023-11-07_18h31.34.883,visual-search,
,,1.0947774999949615,mental_cue,,7.0,m,24.0,1.0,2023-11-07_18h31.34.883,visual-search,
,,0.8844650000100955,visual_cue,,7.0,m,24.0,1.0,2023-11-07_18h31.34.883,visual-search,
,,0.7410252000263426,visual_cue,,7.0,m,24.0,1.0,2023-11-07_18h31.34.883,visual-search,
,,0.5710404000128619,no_cue,,7.0,m,24.0,1.0,2023-11-07_18h31.34.883,visual-search,
,,0.7457794999936596,visual_cue,,7.0,m,24.0,1.0,2023-11-07_18h31.34.883,visual-search,
,,0.8454798999882769,mental_cue,,7.0,m,24.0,1.0,2023-11-07_18h31.34.883,visual-search,
,,0.9687643999932334,no_cue,,7.0,m,24.0,1.0,2023-11-07_18h31.34.883,visual-search,
,,0.9652386000088882,mental_cue,,7.0,m,24.0,1.0,2023-11-07_18h31.34.883,visual-search,
,,1.151948300015647,no_cue,,7.0,m,24.0,1.0,2023-11-07_18h31.34.883,visual-search,
,,0.8377210999897216,mental_cue,,7.0,m,24.0,1.0,2023-11-07_18h31.34.883,visual-search,
,,0.9034260000044014,mental_cue,,7.0,m,24.0,1.0,2023-11-07_18h31.34.883,visual-search,
,,0.4763789999997243,no_cue,,7.0,m,24.0,1.0,2023-11-07_18h31.34.883,visual-search,
,,0.7022078999725636,mental_cue,,7.0,m,24.0,1.0,2023-11-07_18h31.34.883,visual-search,
,,1.515439399983734,visual_cue,,7.0,m,24.0,1.0,2023-11-07_18h31.34.883,visual-search,
,,,,2.0,,,,,,,
,,1.683690100006061,visual_cue,,8.0,m,25.0,1.0,2023-11-07_18h45.56.514,visual-search,
,,0.6267288000090048,no_cue,,8.0,m,25.0,1.0,2023-11-07_18h45.56.514,visual-search,
,,0.9547316000098364,no_cue,,8.0,m,25.0,1.0,2023-11-07_18h45.56.514,visual-search,
,,0.7040089000074659,mental_cue,,8.0,m,25.0,1.0,2023-11-07_18h45.56.514,visual-search,
,,0.57043479999993,no_cue,,8.0,m,25.0,1.0,2023-11-07_18h45.56.514,visual-search,
,,0.7559802000178024,no_cue,,8.0,m,25.0,1.0,2023-11-07_18h45.56.514,visual-search,
,,1.1158442000159994,mental_cue,,8.0,m,25.0,1.0,2023-11-07_18h45.56.514,visual-search,
,,1.2554794999887235,visual_cue,,8.0,m,25.0,1.0,2023-11-07_18h45.56.514,visual-search,
,,0.7743076999904588,mental_cue,,8.0,m,25.0,1.0,2023-11-07_18h45.56.514,visual-search,
,,1.4091214000072796,visual_cue,,8.0,m,25.0,1.0,2023-11-07_18h45.56.514,visual-search,
,,0.8267040000064299,no_cue,,8.0,m,25.0,1.0,2023-11-07_18h45.56.514,visual-search,
,,0.7263405999983661,no_cue,,8.0,m,25.0,1.0,2023-11-07_18h45.56.514,visual-search,
,,0.4646290999953635,visual_cue,,8.0,m,25.0,1.0,2023-11-07_18h45.56.514,visual-search,
,,1.5377393000235315,mental_cue,,8.0,m,25.0,1.0,2023-11-07_18h45.56.514,visual-search,
,,1.4158541999931913,visual_cue,,8.0,m,25.0,1.0,2023-11-07_18h45.56.514,visual-search,
,,0.7847551000013482,mental_cue,,8.0,m,25.0,1.0,2023-11-07_18h45.56.514,visual-search,
,,0.6421438999823295,visual_cue,,8.0,m,25.0,1.0,2023-11-07_18h45.56.514,visual-search,
,,1.3913409999804571,visual_cue,,8.0,m,25.0,1.0,2023-11-07_18h45.56.514,visual-search,
,,0.6726902000082191,no_cue,,8.0,m,25.0,1.0,2023-11-07_18h45.56.514,visual-search,
,,0.7139440000173636,no_cue,,8.0,m,25.0,1.0,2023-11-07_18h45.56.514,visual-search,
,,0.7455630000040401,mental_cue,,8.0,m,25.0,1.0,2023-11-07_18h45.56.514,visual-search,
,,0.9784178000118118,visual_cue,,8.0,m,25.0,1.0,2023-11-07_18h45.56.514,visual-search,
,,0.5037041000032332,mental_cue,,8.0,m,25.0,1.0,2023-11-07_18h45.56.514,visual-search,
,,1.0872611999802757,no_cue,,8.0,m,25.0,1.0,2023-11-07_18h45.56.514,visual-search,
,,1.1075587999948766,mental_cue,,8.0,m,25.0,1.0,2023-11-07_18h45.56.514,visual-search,
,,0.978793099988252,visual_cue,,8.0,m,25.0,1.0,2023-11-07_18h45.56.514,visual-search,
,,0.5686825000157114,mental_cue,,8.0,m,25.0,1.0,2023-11-07_18h45.56.514,visual-search,
,,0.65816019999329,visual_cue,,8.0,m,25.0,1.0,2023-11-07_18h45.56.514,visual-search,
,,1.1555819000059273,mental_cue,,8.0,m,25.0,1.0,2023-11-07_18h45.56.514,visual-search,
,,0.8516042999981437,mental_cue,,8.0,m,25.0,1.0,2023-11-07_18h45.56.514,visual-search,
,,0.7542829000158235,visual_cue,,8.0,m,25.0,1.0,2023-11-07_18h45.56.514,visual-search,
,,0.3817388000024948,mental_cue,,8.0,m,25.0,1.0,2023-11-07_18h45.56.514,visual-search,
,,0.9689273999829312,no_cue,,8.0,m,25.0,1.0,2023-11-07_18h45.56.514,visual-search,
,,1.8788118000084069,visual_cue,,8.0,m,25.0,1.0,2023-11-07_18h45.56.514,visual-search,
,,0.7306829000008292,mental_cue,,8.0,m,25.0,1.0,2023-11-07_18h45.56.514,visual-search,
,,0.7960891999828164,visual_cue,,8.0,m,25.0,1.0,2023-11-07_18h45.56.514,visual-search,
,,0.7123992000124417,visual_cue,,8.0,m,25.0,1.0,2023-11-07_18h45.56.514,visual-search,
,,0.4416801999905146,no_cue,,8.0,m,25.0,1.0,2023-11-07_18h45.56.514,visual-search,
,,0.6588772999821231,no_cue,,8.0,m,25.0,1.0,2023-11-07_18h45.56.514,visual-search,
,,0.860267100011697,no_cue,,8.0,m,25.0,1.0,2023-11-07_18h45.56.514,visual-search,
,,1.0959586999961175,mental_cue,,8.0,m,25.0,1.0,2023-11-07_18h45.56.514,visual-search,
,,0.9876955000218004,no_cue,,8.0,m,25.0,1.0,2023-11-07_18h45.56.514,visual-search,
,,0.9364119000092614,visual_cue,,8.0,m,25.0,1.0,2023-11-07_18h45.56.514,visual-search,
,,0.7800020999857225,visual_cue,,8.0,m,25.0,1.0,2023-11-07_18h45.56.514,visual-search,
,,0.7723271999857388,mental_cue,,8.0,m,25.0,1.0,2023-11-07_18h45.56.514,visual-search,
,,0.6923085000016727,visual_cue,,8.0,m,25.0,1.0,2023-11-07_18h45.56.514,visual-search,
,,0.662149399984628,no_cue,,8.0,m,25.0,1.0,2023-11-07_18h45.56.514,visual-search,
,,0.6694188000110444,no_cue,,8.0,m,25.0,1.0,2023-11-07_18h45.56.514,visual-search,
,,1.51310770001146,no_cue,,8.0,m,25.0,1.0,2023-11-07_18h45.56.514,visual-search,
,,0.7773633000033442,mental_cue,,8.0,m,25.0,1.0,2023-11-07_18h45.56.514,visual-search,
,,0.8979504999879282,visual_cue,,8.0,m,25.0,1.0,2023-11-07_18h45.56.514,visual-search,
,,1.2907959000149276,visual_cue,,8.0,m,25.0,1.0,2023-11-07_18h45.56.514,visual-search,
,,1.1335253000142984,no_cue,,8.0,m,25.0,1.0,2023-11-07_18h45.56.514,visual-search,
,,0.6747601999959443,mental_cue,,8.0,m,25.0,1.0,2023-11-07_18h45.56.514,visual-search,
,,0.8667251000006218,visual_cue,,8.0,m,25.0,1.0,2023-11-07_18h45.56.514,visual-search,
,,0.98396050001611,no_cue,,8.0,m,25.0,1.0,2023-11-07_18h45.56.514,visual-search,
,,0.9573050999897532,no_cue,,8.0,m,25.0,1.0,2023-11-07_18h45.56.514,visual-search,
,,0.5511348999862093,mental_cue,,8.0,m,25.0,1.0,2023-11-07_18h45.56.514,visual-search,
,,1.1654091000091285,mental_cue,,8.0,m,25.0,1.0,2023-11-07_18h45.56.514,visual-search,
,,0.73640749999322,mental_cue,,8.0,m,25.0,1.0,2023-11-07_18h45.56.514,visual-search,
,,,,5.0,,,,,,,
